LabVIEW Measurement	
Writer_Version	2
Reader_Version	2
Separator	Tab
Decimal_Separator	.
Multi_Headings	No
X_Columns	No
Time_Pref	Absolute
Operator	mechlab
Description	Data file
Date	2024/03/15
Time	09:45:38.4229998588562011719
***End_of_Header***	

Channels	9									
Samples	1	1	1	1	1	1	1	1	1	
Date	2024/03/15	2024/03/15	2024/03/15	2024/03/15	2024/03/15	2024/03/15	2024/03/15	2024/03/15	2024/03/15	
Time	09:45:38.4229998588562011719	09:45:38.4450001716613769532	09:45:38.4640002250671386719	09:45:38.4809999465942382813	09:45:38.4990000724792480469	09:45:38.5159997940063476563	09:45:38.5329999923706054688	09:45:38.5520000457763671875	09:45:38.4809999465942382813	
X_Dimension	Time	Time	Time	Time	Time	Time	Time	Time	Time	
X0	0.0000000000000000E+0	0.0000000000000000E+0	0.0000000000000000E+0	0.0000000000000000E+0	0.0000000000000000E+0	0.0000000000000000E+0	0.0000000000000000E+0	0.0000000000000000E+0	0.0000000000000000E+0	
Delta_X	1.000000	1.000000	1.000000	1.000000	1.000000	1.000000	1.000000	1.000000	1.000000	
***End_of_Header***										
X_Value	Untitled	Untitled 1	Untitled 2	Untitled 3	Untitled 4	Untitled 5	Untitled 6	Untitled 7	Untitled 8	Comment
0.000000	-19.434034	-10.092175	89.935570	2.686640E-6	3.044635E-6	3.481587E-5	3.176028E-5	1.403770
0.758000	-25.123191	-10.107941	89.937775	2.849052E-6	2.987906E-6	3.501692E-5	3.215874E-5	1.405975
1.758000	-25.439852	-10.091652	89.935115	3.488554E-6	2.836627E-6	3.491639E-5	3.196437E-5	1.403315
2.758000	-26.067806	-10.098602	89.935850	3.650965E-6	3.224279E-6	3.511744E-5	3.209071E-5	1.404050
3.758000	-22.498665	-10.097918	89.932070	2.757696E-6	2.770443E-6	3.438361E-5	3.166309E-5	1.400270
4.758000	-28.037542	-10.092900	89.937005	4.310765E-6	3.044635E-6	3.530844E-5	3.127435E-5	1.405205
5.758000	-26.207351	-10.095718	89.933190	3.833677E-6	3.148639E-6	3.480581E-5	3.172140E-5	1.401390
6.758000	-21.672127	-10.101796	89.935150	3.864135E-6	3.214824E-6	3.519786E-5	3.125491E-5	1.403350
7.758000	-25.853121	-10.108693	89.938230	3.914884E-6	3.271553E-6	3.504707E-5	3.138125E-5	1.406430
8.758000	-25.890691	-10.092766	89.932210	4.249862E-6	3.715935E-6	3.542907E-5	3.148816E-5	1.400410
9.758000	-23.652597	-10.100588	89.935570	3.853984E-6	3.044636E-6	3.538886E-5	3.164366E-5	1.403770
10.758000	-22.944136	-10.086996	89.939455	3.295689E-6	3.753755E-6	3.519786E-5	3.195465E-5	1.407655
11.758000	-21.784836	-10.113832	89.937145	3.996094E-6	2.997362E-6	3.496665E-5	3.177971E-5	1.405345
