LabVIEW Measurement	
Writer_Version	2
Reader_Version	2
Separator	Tab
Decimal_Separator	.
Multi_Headings	No
X_Columns	No
Time_Pref	Absolute
Operator	mechlab
Description	Data file
Date	2024/03/15
Time	09:25:57.6979999542236328125
***End_of_Header***	
	
Channels	9									
Samples	1	1	1	1	1	1	1	1	1	
Date	2024/03/15	2024/03/15	2024/03/15	2024/03/15	2024/03/15	2024/03/15	2024/03/15	2024/03/15	2024/03/15	
Time	09:25:57.6979999542236328125	09:25:57.7170000076293945313	09:25:57.7340002059936523438	09:25:57.7509999275207519531	09:25:57.7680001258850097656	09:25:57.784999847412109375	09:25:57.8029999732971191406	09:25:57.8189997673034667969	09:25:57.7509999275207519531	
X_Dimension	Time	Time	Time	Time	Time	Time	Time	Time	Time	
X0	0.0000000000000000E+0	0.0000000000000000E+0	0.0000000000000000E+0	0.0000000000000000E+0	0.0000000000000000E+0	0.0000000000000000E+0	0.0000000000000000E+0	0.0000000000000000E+0	0.0000000000000000E+0	
Delta_X	1.000000	1.000000	1.000000	1.000000	1.000000	1.000000	1.000000	1.000000	1.000000	
***End_of_Header***										
X_Value	Untitled	Untitled 1	Untitled 2	Untitled 3	Untitled 4	Untitled 5	Untitled 6	Untitled 7	Untitled 8	Comment
	0.000000	-12.751957	1.593166	88.698505	1.543960E-6	2.045541E-6	1.411585E-5	1.562695E-7	0.094705
	0.483000	-17.791692	1.611455	88.737914	1.188686E-6	1.582254E-6	1.383442E-5	4.089247E-7	0.134114
	1.483000	-26.996319	1.590993	88.760839	1.838333E-6	1.809171E-6	1.304039E-5	1.076834E-7	0.157039
	2.483000	-47.182094	1.588094	88.755204	1.259743E-6	2.168454E-6	1.185437E-5	-8.154792E-7	0.151404
	3.483000	-77.173614	1.565378	88.748379	1.442452E-6	1.459342E-6	1.098998E-5	-1.806660E-6	0.144579
	4.483000	-95.083726	1.541615	88.717229	1.249590E-6	1.620073E-6	9.924577E-6	-2.321685E-6	0.113429
	5.483000	-115.881353	1.557797	88.721919	7.319087E-7	2.253547E-6	9.442130E-6	-2.817275E-6	0.118119
	6.483000	-154.471015	1.547532	88.739559	2.040771E-7	1.950993E-6	7.964643E-6	-4.119409E-6	0.135759
	7.483000	-166.965693	1.532115	88.754084	-2.222496E-7	2.546646E-6	6.879145E-6	-5.217475E-6	0.150284
	8.483000	-190.951396	1.525836	88.761364	-2.120981E-7	2.385915E-6	6.024819E-6	-5.917126E-6	0.157564
	9.483000	-220.196885	1.520576	88.764759	-3.643568E-7	1.544435E-6	4.718206E-6	-6.947167E-6	0.160959
	10.483000	-241.756645	1.506031	88.758564	-6.891781E-7	1.960447E-6	3.502055E-6	-7.666250E-6	0.154764
	11.483000	-271.630089	1.503817	88.714604	-6.384210E-7	2.253547E-6	2.436668E-6	-7.880030E-6	0.110804
	12.483000	-294.783887	1.504515	88.666620	-1.389566E-6	1.960447E-6	9.290494E-7	-1.179610E-5	0.062820
	13.483000	-322.440707	1.493150	88.667180	-1.318514E-6	2.026631E-6	-5.785635E-7	-1.224309E-5	0.063380
	14.483000	-346.941654	1.471574	88.665605	-1.440320E-6	1.950992E-6	-1.493180E-6	-1.358407E-5	0.061805
	15.483000	-381.607946	1.471507	88.667565	-1.795587E-6	2.158998E-6	-3.081191E-6	-1.426427E-5	0.063765
	16.483000	-404.192828	1.470823	88.663365	-1.957999E-6	2.367005E-6	-4.186765E-6	-1.561496E-5	0.059565
	17.483000	-425.768690	1.463335	88.666445	-1.927546E-6	2.310275E-6	-5.382792E-6	-1.593563E-5	0.062645
	18.483000	-454.107136	1.454319	88.666095	-1.826041E-6	2.395370E-6	-6.538613E-6	-1.671300E-5	0.062295
	19.483000	-478.457804	1.437546	88.676175	-2.414773E-6	2.622286E-6	-7.493421E-6	-1.759726E-5	0.072375
	20.483000	-505.910674	1.427872	88.668790	-2.049354E-6	2.593921E-6	-8.357770E-6	-1.802481E-5	0.064990
	21.483000	-527.905173	1.425859	88.666235	-2.201611E-6	2.376459E-6	-9.654293E-6	-1.811227E-5	0.062435
	22.483000	-561.122340	1.418547	88.677890	-2.445226E-6	2.471008E-6	-1.047844E-5	-1.900624E-5	0.074090
	23.483000	-582.961193	1.399158	88.700850	-3.125310E-6	2.291367E-6	-1.151364E-5	-1.924917E-5	0.097050
	24.483000	-610.677052	1.402418	88.740189	-3.033954E-6	2.168453E-6	-1.327247E-5	-2.092050E-5	0.136389
	25.483000	-628.420785	1.376334	88.745404	-2.861396E-6	2.603375E-6	-1.397601E-5	-2.149381E-5	0.141604
	26.483000	-665.899455	1.398675	88.750654	-3.998256E-6	1.771351E-6	-1.519211E-5	-2.228089E-5	0.146854
	27.483000	-691.522135	1.368015	88.758564	-4.617440E-6	2.404823E-6	-1.700118E-5	-2.324288E-5	0.154764
	28.483000	-722.909112	1.359334	88.763779	-4.668190E-6	2.773563E-6	-1.787557E-5	-2.365099E-5	0.159979
	29.483000	-743.234435	1.353752	88.761679	-4.982855E-6	2.660104E-6	-1.931277E-5	-2.504052E-5	0.157879
	30.483000	-774.508704	1.339207	88.764164	-5.338123E-6	2.064450E-6	-2.051880E-5	-2.510854E-5	0.160364
	31.483000	-797.329742	1.324689	88.765634	-5.470076E-6	1.998266E-6	-2.236806E-5	-2.540005E-5	0.161834
	32.483000	-830.847472	1.317524	88.777849	-4.800144E-6	2.688468E-6	-2.357409E-5	-2.631344E-5	0.174049
	33.483000	-857.296692	1.334699	88.785724	-5.936999E-6	2.158998E-6	-2.420725E-5	-2.717825E-5	0.181924
	34.483000	-883.160894	1.308400	88.789539	-5.043760E-6	2.924841E-6	-2.494092E-5	-2.704221E-5	0.185739
	35.483000	-913.302700	1.306843	88.795034	-5.794895E-6	2.423733E-6	-2.670976E-5	-2.846088E-5	0.191234
	36.483000	-937.266939	1.309393	88.791674	-5.794893E-6	2.423733E-6	-2.764442E-5	-2.882041E-5	0.187874
	37.483000	-968.471438	1.291144	88.788769	-5.967452E-6	3.104482E-6	-2.825748E-5	-2.888843E-5	0.184969
	38.483000	-1000.142877	1.263759	88.780299	-6.596783E-6	3.274670E-6	-2.992580E-5	-2.953946E-5	0.176499
	39.483000	-1022.577485	1.248744	88.762834	-7.175357E-6	2.669559E-6	-3.094086E-5	-3.036539E-5	0.159034
	40.483000	-1050.524136	1.271702	88.761574	-6.789640E-6	3.085573E-6	-3.183532E-5	-3.110387E-5	0.157774
	41.483000	-1079.340263	1.255131	88.759684	-7.429118E-6	2.915386E-6	-3.341318E-5	-3.202697E-5	0.155884
	42.483000	-1109.304957	1.239486	88.758774	-8.068598E-6	3.340853E-6	-3.379508E-5	-3.202697E-5	0.154974
	43.483000	-1133.838114	1.225370	88.763149	-7.835133E-6	2.650651E-6	-3.568448E-5	-3.352336E-5	0.159349
	44.483000	-1153.895083	1.231757	88.763919	-7.794533E-6	2.452097E-6	-3.668948E-5	-3.337761E-5	0.160119
	45.483000	-1186.988816	1.217843	88.764444	-7.774233E-6	2.764108E-6	-3.811657E-5	-3.447560E-5	0.160644
	46.483000	-1218.112812	1.202265	88.768119	-8.931382E-6	3.227394E-6	-3.918186E-5	-3.528210E-5	0.164319
	47.483000	-1244.363452	1.196670	88.788944	-8.799427E-6	3.047753E-6	-4.026725E-5	-3.604000E-5	0.185144
	48.483000	-1274.333516	1.204009	88.794019	-8.586267E-6	3.151756E-6	-4.157373E-5	-3.686592E-5	0.190219
	49.483000	-1305.758073	1.181950	88.797099	-8.992284E-6	3.170666E-6	-4.276967E-5	-3.761411E-5	0.193299
	50.483000	-1329.770621	1.157141	88.794194	-9.804312E-6	3.132847E-6	-4.436759E-5	-3.859550E-5	0.190394
	51.483000	-1350.815145	1.181990	88.789819	-9.763715E-6	3.454311E-6	-4.579466E-5	-3.914935E-5	0.186019
	52.483000	-1388.465577	1.169243	88.794439	-9.591158E-6	3.785233E-6	-4.703078E-5	-3.964490E-5	0.190639
	53.483000	-1420.834751	1.160884	88.849213	-9.966721E-6	2.820836E-6	-4.855834E-5	-4.041252E-5	0.245413
	54.483000	-1442.432092	1.132948	88.896148	-1.057574E-5	3.246306E-6	-4.957336E-5	-4.074288E-5	0.292348
	55.483000	-1475.574134	1.135940	88.895133	-1.045394E-5	3.633954E-6	-5.100041E-5	-4.223924E-5	0.291333
	56.483000	-1498.754780	1.115398	88.905213	-1.186484E-5	3.028844E-6	-5.193503E-5	-4.260847E-5	0.301413
	57.483000	-1522.391632	1.134183	88.913263	-1.148928E-5	2.697924E-6	-5.304049E-5	-4.323034E-5	0.309463
	58.483000	-1552.876946	1.115183	88.912878	-1.178364E-5	3.529951E-6	-5.397510E-5	-4.363843E-5	0.309078
	59.483000	-1581.204673	1.127715	88.928978	-1.266672E-5	3.170666E-6	-5.585437E-5	-4.460037E-5	0.325178
	60.483000	-1603.961316	1.083718	88.917778	-1.279867E-5	3.378673E-6	-5.712061E-5	-4.544571E-5	0.313978
	61.483000	-1636.019202	1.076312	88.898528	-1.301183E-5	3.577225E-6	-5.785423E-5	-4.522223E-5	0.294728
	62.483000	-1664.733365	1.085691	88.882043	-1.295093E-5	3.520496E-6	-5.893957E-5	-4.641737E-5	0.278243
	63.483000	-1693.372388	1.064491	88.878718	-1.330619E-5	3.435402E-6	-5.926116E-5	-4.623275E-5	0.274918
	64.483000	-1716.756989	1.053676	88.859188	-1.332649E-5	3.284125E-6	-6.069823E-5	-4.711696E-5	0.255388
	65.483000	-1752.384021	1.067603	88.872593	-1.396596E-5	4.106697E-6	-6.178357E-5	-4.860358E-5	0.268793
	66.483000	-1774.056507	1.054548	88.927263	-1.384415E-5	3.529951E-6	-6.316034E-5	-4.883678E-5	0.323463
	67.483000	-1815.721567	1.039399	88.936538	-1.468663E-5	3.577226E-6	-6.472804E-5	-4.992502E-5	0.332738
	68.483000	-1856.157555	1.041881	88.938218	-1.495054E-5	3.728502E-6	-6.596411E-5	-5.082865E-5	0.334418
	69.483000	-1909.576643	1.019876	88.926353	-1.526519E-5	3.511041E-6	-6.735092E-5	-5.283023E-5	0.322553
	70.483000	-1951.595938	1.001011	88.929013	-1.542760E-5	3.898691E-6	-6.914974E-5	-5.330633E-5	0.325213
	71.483000	-2007.907916	0.996113	88.927823	-1.591481E-5	3.321943E-6	-7.067723E-5	-5.527876E-5	0.324023
	72.483000	-2055.111869	1.001306	88.930448	-1.693999E-5	3.274669E-6	-7.251623E-5	-5.599776E-5	0.326648
	73.483000	-2101.145788	0.978509	88.931148	-1.741705E-5	3.596135E-6	-7.385277E-5	-5.751351E-5	0.327348
	74.483000	-2165.374300	0.972310	88.943958	-1.741704E-5	3.303035E-6	-7.545059E-5	-5.877662E-5	0.340158
	75.483000	-2211.606808	0.970029	88.948857	-1.841177E-5	2.593921E-6	-7.746041E-5	-6.011747E-5	0.345057
	76.483000	-2260.179390	0.956665	88.956592	-1.880763E-5	3.274672E-6	-7.941998E-5	-6.141944E-5	0.352792
	77.483000	-2317.092506	0.965360	88.955962	-1.970084E-5	3.057209E-6	-8.103788E-5	-6.287687E-5	0.352162
	78.483000	-2364.500425	0.952358	88.958412	-2.042151E-5	2.801929E-6	-8.291704E-5	-6.449947E-5	0.354612
	79.483000	-2424.467448	0.951472	88.959252	-2.067526E-5	3.132847E-6	-8.490673E-5	-6.619980E-5	0.355452
	80.483000	-2473.947088	0.938806	88.957852	-2.065496E-5	2.934296E-6	-8.707729E-5	-6.706453E-5	0.354052
	81.483000	-2536.259558	0.922436	88.963312	-2.178163E-5	3.113939E-6	-8.836355E-5	-6.875513E-5	0.359512
	82.483000	-2590.258336	0.899008	88.958587	-2.225868E-5	3.066664E-6	-9.039341E-5	-6.980446E-5	0.354787
	83.483000	-2654.282932	0.903530	88.958272	-2.196433E-5	2.556102E-6	-9.283527E-5	-7.191284E-5	0.354472
	84.483000	-2704.132920	0.890435	88.959007	-2.406540E-5	2.073905E-6	-9.503594E-5	-7.347711E-5	0.355207
	85.483000	-2761.743794	0.893131	88.956312	-2.404510E-5	2.404824E-6	-9.663369E-5	-7.485677E-5	0.352512
	86.483000	-2818.420790	0.884839	88.958832	-2.504996E-5	2.206273E-6	-9.855298E-5	-7.648905E-5	0.355032
	87.483000	-2875.580833	0.876359	88.960617	-2.558791E-5	1.563344E-6	-0.000101	-7.811160E-5	0.356817
	88.483000	-2934.023627	0.843794	88.969857	-2.623751E-5	2.263001E-6	-0.000103	-7.980216E-5	0.366057
	89.483000	-3003.721322	0.858138	88.957117	-2.647096E-5	2.291367E-6	-0.000105	-8.199793E-5	0.353317
	90.483000	-3063.972855	0.845297	88.971502	-2.654201E-5	1.865898E-6	-0.000107	-8.320268E-5	0.367702
	91.483000	-3124.546421	0.830135	89.022287	-2.731342E-5	1.922628E-6	-0.000109	-8.511669E-5	0.418487
	92.483000	-3179.962168	0.828001	89.017422	-2.790212E-5	1.969901E-6	-0.000111	-8.628257E-5	0.413622
	93.483000	-3241.560869	0.808344	89.025192	-2.896786E-5	2.518282E-6	-0.000113	-8.791480E-5	0.421392
	94.483000	-3300.583347	0.821239	89.023722	-2.913026E-5	2.839748E-6	-0.000116	-8.947902E-5	0.419922
	95.483000	-3359.664869	0.792189	89.025927	-3.047006E-5	2.263001E-6	-0.000118	-9.150958E-5	0.422127
	96.483000	-3428.981543	0.811605	89.018472	-3.089636E-5	2.385915E-6	-0.000121	-9.352071E-5	0.414672
	97.483000	-3494.283600	0.784876	89.027397	-3.064261E-5	2.480463E-6	-0.000122	-9.526950E-5	0.423597
	98.483000	-3553.993096	0.783454	89.040697	-3.173880E-5	2.281912E-6	-0.000125	-9.762065E-5	0.436897
	99.483000	-3621.801625	0.770157	89.062257	-3.281469E-5	2.158999E-6	-0.000127	-9.949573E-5	0.458457
	100.483000	-3687.044664	0.767742	89.034607	-3.376878E-5	2.593922E-6	-0.000130	-0.000101	0.430807
	101.483000	-3761.943211	0.733352	89.039122	-3.415447E-5	2.102270E-6	-0.000132	-0.000103	0.435322
	102.483000	-3826.402663	0.739819	89.114756	-3.440822E-5	1.865899E-6	-0.000134	-0.000105	0.510956
	103.483000	-3892.220012	0.753586	89.106706	-3.546380E-5	2.433188E-6	-0.000136	-0.000107	0.502906
	104.483000	-3958.547248	0.724335	89.020887	-3.653968E-5	1.733531E-6	-0.000139	-0.000109	0.417087
	105.483000	-4026.645652	0.705577	89.009827	-3.730092E-5	1.071695E-6	-0.000141	-0.000110	0.406027
	106.483000	-4102.440562	0.713494	89.023162	-3.735167E-5	1.308065E-6	-0.000141	-0.000111	0.419362
	107.483000	-4166.803447	0.699646	89.022882	-3.896549E-5	9.676919E-7	-0.000144	-0.000113	0.419082
	108.483000	-4246.017254	0.704182	88.967512	-3.917863E-5	7.975055E-7	-0.000146	-0.000114	0.363712
	109.483000	-4312.226460	0.685249	88.954982	-4.039660E-5	1.147332E-6	-0.000148	-0.000117	0.351182
	110.483000	-4391.944803	0.682284	88.965307	-4.032555E-5	1.846990E-6	-0.000150	-0.000119	0.361507
	111.483000	-4467.090342	0.675253	89.025297	-4.155367E-5	1.005511E-6	-0.000153	-0.000121	0.421497
	112.483000	-4541.081957	0.655368	89.029392	-4.269043E-5	1.393158E-6	-0.000156	-0.000123	0.425592
	113.483000	-4613.817667	0.654066	89.023582	-4.307612E-5	1.156788E-6	-0.000158	-0.000125	0.419782
	114.483000	-4684.964712	0.630021	89.023967	-4.399974E-5	1.213517E-6	-0.000160	-0.000127	0.420167
	115.483000	-4754.646532	0.624332	89.025507	-4.478127E-5	9.960564E-7	-0.000162	-0.000129	0.421707
	116.483000	-4836.141484	0.642272	89.023232	-4.591802E-5	-2.047026E-7	-0.000165	-0.000131	0.419432
	117.483000	-4913.696954	0.623889	89.024317	-4.688223E-5	-2.519765E-7	-0.000168	-0.000134	0.420517
	118.483000	-4990.946512	0.614202	89.066247	-4.729837E-5	-8.179118E-8	-0.000170	-0.000136	0.462447
	119.483000	-5069.741826	0.609519	89.123226	-4.827273E-5	-6.288058E-8	-0.000172	-0.000137	0.519426
	120.483000	-5141.109000	0.609854	89.122281	-4.947037E-5	-1.196092E-7	-0.000175	-0.000140	0.518481
	121.483000	-5222.609395	0.597295	89.119971	-5.055638E-5	-1.560642E-8	-0.000178	-0.000142	0.516171
	122.483000	-5306.557235	0.565012	89.127636	-5.137848E-5	-6.112577E-7	-0.000181	-0.000145	0.523836
	123.483000	-5395.603901	0.563590	89.136736	-5.306330E-5	-8.570826E-7	-0.000183	-0.000147	0.532936
	124.483000	-5477.979198	0.571667	89.220630	-5.377376E-5	-1.632373E-6	-0.000185	-0.000150	0.616830
	125.483000	-5559.796326	0.557136	89.218180	-5.493079E-5	-1.528369E-6	-0.000188	-0.000152	0.614380
	126.483000	-5654.720106	0.542430	89.221225	-5.550931E-5	-1.518915E-6	-0.000191	-0.000155	0.617425
	127.483000	-5753.057433	0.539102	89.215310	-5.666634E-5	-1.963289E-6	-0.000193	-0.000157	0.611510
	128.483000	-5839.876829	0.533131	89.210305	-5.814815E-5	-2.265840E-6	-0.000196	-0.000158	0.606505
	129.483000	-5933.340811	0.529643	89.123751	-5.851352E-5	-2.369844E-6	-0.000199	-0.000161	0.519951
	130.483000	-6017.997280	0.494139	89.118186	-5.906159E-5	-2.634575E-6	-0.000202	-0.000164	0.514386
	131.483000	-6108.804557	0.490704	89.121091	-6.110160E-5	-2.341479E-6	-0.000204	-0.000166	0.517291
	132.483000	-6214.935157	0.498097	89.122876	-6.135533E-5	-2.228022E-6	-0.000207	-0.000169	0.519076
	133.483000	-6308.662234	0.477273	89.120566	-6.321265E-5	-2.228022E-6	-0.000209	-0.000172	0.516766
	134.483000	-6417.111520	0.477434	89.121791	-6.476548E-5	-2.757487E-6	-0.000212	-0.000175	0.517991
	135.483000	-6511.831584	0.448505	89.137331	-6.546577E-5	-2.615666E-6	-0.000215	-0.000178	0.533531
	136.483000	-6616.341425	0.453228	89.173031	-6.671412E-5	-2.804758E-6	-0.000218	-0.000181	0.569231
	137.483000	-6721.468528	0.455724	89.183846	-6.865261E-5	-3.220768E-6	-0.000221	-0.000184	0.580046
	138.483000	-6835.558876	0.439086	89.182131	-6.935290E-5	-3.258587E-6	-0.000224	-0.000186	0.578331
	139.483000	-6953.749799	0.442105	89.190041	-7.088541E-5	-3.334223E-6	-0.000227	-0.000189	0.586241
	140.483000	-7054.234397	0.425104	89.183811	-7.242807E-5	-3.750232E-6	-0.000230	-0.000193	0.580011
	141.483000	-7171.614964	0.442802	89.183076	-7.397072E-5	-3.580047E-6	-0.000232	-0.000196	0.579276
	142.483000	-7299.681671	0.424501	89.165926	-7.525964E-5	-4.024417E-6	-0.000235	-0.000199	0.562126
	143.483000	-7425.784041	0.391882	89.181641	-7.690377E-5	-3.892051E-6	-0.000235	-0.000200	0.577841
	144.483000	-7544.501195	0.399127	89.210830	-7.838552E-5	-4.204058E-6	-0.000238	-0.000204	0.607030
	145.483000	-7673.088692	0.396229	89.214785	-8.004994E-5	-4.402605E-6	-0.000241	-0.000208	0.610985
	146.483000	-7791.698610	0.377028	89.214995	-8.158242E-5	-4.686246E-6	-0.000244	-0.000212	0.611195
	147.483000	-7926.243833	0.377364	89.214540	-8.322652E-5	-4.799703E-6	-0.000246	-0.000215	0.610740
	148.483000	-8049.550179	0.360323	89.208415	-8.491122E-5	-5.158981E-6	-0.000248	-0.000218	0.604615
	149.483000	-8189.172921	0.363503	89.211460	-8.598699E-5	-5.121161E-6	-0.000251	-0.000221	0.607660
	150.483000	-8314.218373	0.330012	89.204530	-8.762094E-5	-5.612805E-6	-0.000255	-0.000225	0.600730
	151.483000	-8451.635336	0.324471	89.187346	-8.890982E-5	-5.603351E-6	-0.000257	-0.000229	0.583546
	152.483000	-8596.850956	0.327356	89.190286	-9.111208E-5	-5.537167E-6	-0.000259	-0.000232	0.586486
	153.483000	-8739.495760	0.326966	89.152381	-9.323314E-5	-6.378634E-6	-0.000263	-0.000237	0.548581
	154.483000	-8881.158447	0.320580	89.133971	-9.473513E-5	-6.350269E-6	-0.000266	-0.000241	0.530171
	155.483000	-9035.804565	0.307698	89.129526	-9.681558E-5	-6.577179E-6	-0.000269	-0.000245	0.525726
	156.483000	-9178.009525	0.297326	89.123996	-9.927152E-5	-7.815737E-6	-0.000271	-0.000248	0.520196
	157.483000	-9330.691433	0.278085	89.129106	-0.000101	-7.541553E-6	-0.000273	-0.000253	0.525306
	158.483000	-9487.774590	0.286498	89.138206	-0.000103	-7.787373E-6	-0.000276	-0.000257	0.534406
	159.483000	-9642.104460	0.267002	89.122981	-0.000105	-7.787373E-6	-0.000280	-0.000261	0.519181
	160.483000	-9807.920366	0.264547	89.124031	-0.000108	-8.628835E-6	-0.000282	-0.000266	0.520231
	161.483000	-9960.613456	0.246580	89.122176	-0.000110	-9.073200E-6	-0.000285	-0.000269	0.518376
	162.483000	-10131.104503	0.243400	89.133236	-0.000113	-9.716112E-6	-0.000288	-0.000274	0.529436
	163.483000	-10288.751820	0.241200	89.117906	-0.000115	-1.018884E-5	-0.000291	-0.000278	0.514106
	164.483000	-10457.058665	0.217155	89.120881	-0.000117	-1.025502E-5	-0.000294	-0.000283	0.517081
	165.483000	-10626.353230	0.248499	89.122071	-0.000119	-1.037793E-5	-0.000297	-0.000287	0.518271
	166.483000	-10805.818941	0.220858	89.118816	-0.000122	-1.161648E-5	-0.000300	-0.000292	0.515016
	167.483000	-10988.832599	0.216793	89.122631	-0.000125	-1.183393E-5	-0.000301	-0.000294	0.518831
	168.483000	-11159.941780	0.201590	89.122456	-0.000127	-1.206084E-5	-0.000303	-0.000299	0.518656
	169.483000	-11347.609233	0.185261	89.115316	-0.000129	-1.235393E-5	-0.000307	-0.000305	0.511516
	170.483000	-11530.301389	0.181692	89.124626	-0.000132	-1.321430E-5	-0.000309	-0.000309	0.520826
	171.483000	-11711.936371	0.162652	89.111116	-0.000135	-1.363029E-5	-0.000312	-0.000314	0.507316
	172.483000	-11919.291711	0.150334	89.104921	-0.000137	-1.415974E-5	-0.000314	-0.000319	0.501121
	173.483000	-12108.312532	0.154185	89.098936	-0.000141	-1.506737E-5	-0.000317	-0.000325	0.495136
	174.483000	-12299.958183	0.146711	89.057567	-0.000144	-1.580482E-5	-0.000320	-0.000330	0.453767
	175.483000	-12489.006266	0.138808	89.034817	-0.000146	-1.644773E-5	-0.000322	-0.000335	0.431017
	176.483000	-12699.958677	0.123686	89.029252	-0.000149	-1.700554E-5	-0.000325	-0.000341	0.425452
	177.483000	-12905.753340	0.129496	89.024527	-0.000152	-1.774298E-5	-0.000327	-0.000345	0.420727
	178.483000	-13101.114136	0.101037	89.022532	-0.000155	-1.847097E-5	-0.000330	-0.000352	0.418732
	179.483000	-13316.667182	0.108806	89.023617	-0.000158	-1.937859E-5	-0.000332	-0.000357	0.419817
	180.483000	-13533.326204	0.109115	89.022917	-0.000161	-2.027676E-5	-0.000335	-0.000363	0.419117
	181.483000	-13749.223369	0.084989	89.021132	-0.000164	-2.086293E-5	-0.000338	-0.000369	0.417332
	182.483000	-13958.459921	0.053887	89.007307	-0.000168	-2.135456E-5	-0.000340	-0.000374	0.403507
	183.483000	-14192.000318	0.069921	89.001532	-0.000172	-2.247017E-5	-0.000342	-0.000380	0.397732
	184.483000	-14402.767209	0.049338	88.995337	-0.000174	-2.351959E-5	-0.000345	-0.000387	0.391537
	185.483000	-14642.679438	0.047889	88.965202	-0.000178	-2.429485E-5	-0.000348	-0.000393	0.361402
	186.483000	-14871.368805	0.039328	88.972517	-0.000181	-2.495664E-5	-0.000351	-0.000399	0.368717
	187.483000	-15094.492529	0.030419	88.958132	-0.000185	-2.582644E-5	-0.000353	-0.000405	0.354332
	188.483000	-15322.667372	0.022878	88.959147	-0.000188	-2.610061E-5	-0.000356	-0.000411	0.355347
	189.483000	-15562.967660	0.010091	88.959357	-0.000192	-2.757547E-5	-0.000359	-0.000418	0.355557
	190.483000	-15791.046688	0.020423	88.957747	-0.000196	-2.857761E-5	-0.000360	-0.000424	0.353947
	191.483000	-16033.188872	0.003852	88.956172	-0.000200	-3.005247E-5	-0.000363	-0.000430	0.352372
	192.483000	-16261.821579	-0.000912	88.959357	-0.000204	-3.048736E-5	-0.000365	-0.000436	0.355557
	193.483000	-16502.740867	-0.021481	88.961422	-0.000207	-3.172585E-5	-0.000367	-0.000443	0.357622
	194.483000	-16747.723815	-0.012921	88.951762	-0.000211	-3.258617E-5	-0.000370	-0.000449	0.347962
	195.483000	-16991.209712	-0.037582	88.946478	-0.000214	-3.417446E-5	-0.000372	-0.000455	0.342678
	196.483000	-17241.502116	-0.017362	88.948227	-0.000219	-3.517659E-5	-0.000375	-0.000462	0.344427
	197.483000	-17479.476561	-0.040279	88.932163	-0.000223	-3.559257E-5	-0.000376	-0.000468	0.328363
	198.483000	-17718.245884	-0.046264	88.935418	-0.000226	-3.716194E-5	-0.000378	-0.000475	0.331618
	199.483000	-17806.982057	-0.068041	88.933493	-0.000228	-3.629217E-5	-0.000380	-0.000477	0.329693
	200.483000	-17786.955759	-0.054891	88.928278	-0.000227	-3.631108E-5	-0.000380	-0.000477	0.324478
